File: data/TGA_Ana/TGA_Data.csv
C,Biochar Hummers,C,Biochar Oxidizer,C,Coal EL Hummers,C,Coal EL Oxidizer,C,Coal EL Hummers Char,C,Coal EL Oxidizer Char,C,Coal Hummers,C,Coal Oxidizer,C,Coal Char Hummers,C,Coal Char Oxidizer
34.5,100,34.69,99.97,30.04,99.83,34.78,99.98,34.61,99.97,34.4,99.97,34.55,99.99,34.61,99.99,30.09,99.85,34.65,100
35.07,99.9,35.3,99.91,33.5,99.75,35.37,99.89,35.23,99.93,34.98,99.87,35.1,99.86,35.18,99.94,33.21,99.78,35.27,99.96
37.14,99.74,37.38,99.84,36.73,99.6,37.43,99.84,37.34,99.88,37.04,99.74,37.15,99.77,37.23,99.88,36.62,99.71,37.35,99.9
40.42,99.66,40.67,99.76,39.76,99.41,40.71,99.8,40.64,99.81,40.33,99.66,40.42,99.7,40.5,99.84,39.76,99.58,40.64,99.83
43.76,99.53,44.01,99.62,42.78,99.17,44.05,99.74,43.97,99.69,43.68,99.54,43.76,99.63,43.85,99.75,42.77,99.4,43.97,99.72
46.85,99.33,47.09,99.44,45.82,98.88,47.14,99.64,47.05,99.53,46.76,99.34,46.85,99.48,46.94,99.63,45.8,99.19,47.06,99.57
49.86,99.08,50.1,99.24,48.87,98.54,50.14,99.52,50.05,99.32,49.77,99.09,49.85,99.29,49.94,99.49,48.84,98.96,50.07,99.4
52.88,98.82,53.13,99.02,51.91,98.18,53.17,99.39,53.08,99.1,52.8,98.8,52.88,99.08,52.97,99.34,51.89,98.71,53.09,99.22
55.93,98.55,56.17,98.8,54.94,97.8,56.21,99.24,56.13,98.86,55.84,98.48,55.92,98.83,56.02,99.18,54.92,98.45,56.14,99.02
58.97,98.27,59.21,98.57,57.97,97.41,59.25,99.09,59.17,98.6,58.88,98.14,58.96,98.56,59.06,99.01,57.95,98.19,59.18,98.82
62,98,62.24,98.35,61,97.04,62.28,98.94,62.2,98.34,61.92,97.78,61.99,98.28,62.09,98.84,60.98,97.93,62.21,98.62
65.03,97.73,65.27,98.14,64.02,96.68,65.31,98.78,65.23,98.06,64.94,97.43,65.02,97.99,65.12,98.68,64.01,97.68,65.23,98.42
68.05,97.49,68.29,97.94,67.04,96.34,68.33,98.63,68.25,97.79,67.97,97.1,68.05,97.69,68.14,98.52,67.03,97.43,68.26,98.24
71.07,97.26,71.31,97.76,70.06,96.02,71.35,98.48,71.27,97.51,70.99,96.78,71.07,97.39,71.16,98.36,70.04,97.22,71.28,98.06
74.09,97.04,74.33,97.59,73.07,95.71,74.37,98.33,74.29,97.25,74.01,96.48,74.09,97.1,74.18,98.21,73.06,97.02,74.3,97.9
77.11,96.85,77.35,97.44,76.08,95.42,77.38,98.18,77.3,96.99,77.02,96.19,77.1,96.82,77.19,98.07,76.07,96.83,77.31,97.75
80.12,96.67,80.36,97.3,79.09,95.15,80.4,98.04,80.31,96.75,80.04,95.91,80.11,96.55,80.21,97.95,79.08,96.66,80.32,97.61
83.13,96.5,83.37,97.18,82.09,94.89,83.41,97.91,83.32,96.51,83.05,95.66,83.12,96.3,83.22,97.83,82.09,96.5,83.34,97.48
86.13,96.35,86.38,97.06,85.1,94.66,86.41,97.77,86.33,96.29,86.05,95.42,86.13,96.06,86.22,97.72,85.09,96.36,86.34,97.37
89.14,96.22,89.38,96.95,88.1,94.44,89.42,97.64,89.33,96.08,89.06,95.2,89.13,95.85,89.23,97.63,88.1,96.23,89.35,97.26
92.14,96.09,92.39,96.85,91.1,94.24,92.42,97.5,92.33,95.88,92.06,95,92.14,95.65,92.23,97.54,91.1,96.11,92.35,97.17
95.15,95.97,95.39,96.76,94.11,94.06,95.43,97.35,95.34,95.7,95.07,94.81,95.14,95.47,95.24,97.47,94.1,96.01,95.35,97.08
98.15,95.86,98.39,96.66,97.11,93.89,98.43,97.2,98.34,95.52,98.07,94.63,98.14,95.3,98.24,97.39,97.1,95.91,98.36,97
101.14,95.76,101.39,96.55,100.11,93.74,101.43,97.05,101.34,95.36,101.07,94.46,101.14,95.15,101.24,97.33,100.1,95.83,101.35,96.92
104.15,95.65,104.39,96.45,103.11,93.6,104.43,96.89,104.34,95.2,104.07,94.29,104.14,95.01,104.24,97.27,103.1,95.75,104.36,96.85
107.15,95.56,107.39,96.35,106.1,93.47,107.43,96.72,107.34,95.05,107.07,94.12,107.14,94.88,107.24,97.22,106.1,95.68,107.36,96.78
110.14,95.47,110.39,96.23,109.1,93.35,110.43,96.55,110.34,94.9,110.07,93.96,110.14,94.76,110.24,97.17,109.1,95.61,110.35,96.72
113.14,95.38,113.39,96.1,112.1,93.24,113.42,96.38,113.34,94.76,113.06,93.79,113.13,94.65,113.23,97.12,112.1,95.55,113.35,96.66
116.14,95.29,116.39,95.95,115.1,93.13,116.42,96.21,116.33,94.62,116.06,93.62,116.13,94.55,116.23,97.07,115.1,95.49,116.35,96.6
119.14,95.2,119.38,95.79,118.1,93.02,119.41,96.03,119.33,94.48,119.06,93.45,119.13,94.45,119.23,97.01,118.09,95.43,119.35,96.53
122.14,95.11,122.38,95.62,121.09,92.91,122.41,95.85,122.33,94.34,122.06,93.27,122.13,94.36,122.23,96.96,121.09,95.37,122.34,96.47
125.13,95.02,125.38,95.44,124.09,92.81,125.41,95.66,125.33,94.2,125.05,93.09,125.13,94.26,125.22,96.9,124.09,95.32,125.34,96.4
128.13,94.94,128.37,95.25,127.09,92.69,128.41,95.46,128.32,94.06,128.05,92.89,128.12,94.17,128.22,96.83,127.08,95.26,128.34,96.33
131.13,94.85,131.37,95.05,130.08,92.58,131.4,95.26,131.32,93.93,131.05,92.7,131.12,94.08,131.22,96.76,130.08,95.21,131.33,96.25
134.12,94.77,134.37,94.86,133.08,92.46,134.4,95.04,134.32,93.79,134.05,92.49,134.12,93.98,134.21,96.67,133.08,95.15,134.33,96.17
137.12,94.68,137.36,94.66,136.08,92.33,137.4,94.83,137.31,93.65,137.04,92.28,137.11,93.88,137.21,96.58,136.07,95.1,137.33,96.09
140.12,94.59,140.36,94.46,139.07,92.19,140.39,94.61,140.31,93.51,140.04,92.07,140.11,93.78,140.21,96.48,139.07,95.03,140.32,96
143.11,94.51,143.35,94.27,142.07,92.05,143.39,94.38,143.31,93.37,143.03,91.86,143.11,93.67,143.2,96.36,142.07,94.97,143.32,95.9
146.11,94.42,146.35,94.07,145.07,91.89,146.39,94.14,146.3,93.24,146.03,91.65,146.1,93.56,146.2,96.23,145.07,94.9,146.32,95.8
149.11,94.33,149.35,93.89,148.07,91.72,149.38,93.89,149.3,93.1,149.03,91.44,149.1,93.45,149.2,96.08,148.06,94.83,149.31,95.69
152.1,94.25,152.35,93.71,151.06,91.55,152.38,93.65,152.3,92.97,152.02,91.25,152.1,93.33,152.19,95.92,151.06,94.75,152.31,95.57
155.1,94.16,155.34,93.54,154.06,91.36,155.38,93.39,155.3,92.84,155.02,91.06,155.1,93.2,155.19,95.74,154.05,94.67,155.31,95.44
158.1,94.08,158.34,93.38,157.06,91.16,158.38,93.13,158.29,92.72,158.02,90.89,158.09,93.07,158.19,95.54,157.05,94.59,158.31,95.32
161.1,93.99,161.34,93.23,160.06,90.96,161.37,92.86,161.29,92.6,161.02,90.72,161.09,92.93,161.18,95.32,160.05,94.5,161.3,95.18
164.09,93.9,164.33,93.08,163.05,90.75,164.37,92.59,164.29,92.48,164.02,90.57,164.09,92.79,164.18,95.1,163.05,94.41,164.3,95.05
167.09,93.81,167.33,92.94,166.05,90.53,167.37,92.31,167.28,92.36,167.01,90.42,167.09,92.64,167.18,94.85,166.04,94.32,167.3,94.91
170.09,93.72,170.33,92.81,169.05,90.31,170.36,92.03,170.28,92.24,170.01,90.28,170.08,92.49,170.18,94.6,169.04,94.22,170.29,94.77
173.09,93.63,173.33,92.68,172.04,90.09,173.36,91.75,173.28,92.13,173.01,90.14,173.08,92.34,173.17,94.33,172.04,94.12,173.29,94.62
176.08,93.54,176.32,92.56,175.04,89.86,176.36,91.46,176.27,92.02,176,90.01,176.08,92.18,176.17,94.05,175.04,94.03,176.29,94.48
179.08,93.45,179.32,92.45,178.04,89.64,179.36,91.16,179.27,91.91,179,89.89,179.07,92.02,179.17,93.76,178.03,93.93,179.28,94.33
182.08,93.36,182.32,92.34,181.03,89.43,182.35,90.86,182.27,91.8,182,89.77,182.07,91.85,182.16,93.47,181.03,93.83,182.28,94.19
185.07,93.26,185.31,92.23,184.03,89.21,185.35,90.56,185.27,91.7,185,89.66,185.07,91.68,185.16,93.16,184.03,93.73,185.28,94.06
188.07,93.17,188.31,92.12,187.03,89.01,188.35,90.25,188.26,91.59,187.99,89.55,188.06,91.51,188.16,92.85,187.02,93.63,188.28,93.92
191.07,93.07,191.31,92.02,190.03,88.81,191.34,89.95,191.26,91.49,190.99,89.44,191.06,91.33,191.16,92.52,190.02,93.52,191.27,93.78
194.07,92.97,194.31,91.92,193.02,88.61,194.34,89.63,194.26,91.39,193.99,89.33,194.06,91.15,194.15,92.19,193.02,93.42,194.27,93.65
197.06,92.87,197.3,91.82,196.02,88.41,197.34,89.31,197.26,91.29,196.98,89.22,197.06,90.96,197.15,91.85,196.02,93.32,197.27,93.52
200.06,92.78,200.3,91.72,199.02,88.21,200.34,88.98,200.25,91.19,199.98,89.12,200.06,90.78,200.15,91.51,199.02,93.22,200.27,93.39
203.06,92.68,203.3,91.61,202.02,88.01,203.33,88.65,203.25,91.09,202.98,89.02,203.05,90.58,203.15,91.17,202.01,93.12,203.26,93.27
206.06,92.58,206.29,91.52,205.02,87.81,206.33,88.32,206.25,90.98,205.98,88.92,206.05,90.38,206.15,90.81,205.01,93.02,206.26,93.15
209.05,92.48,209.29,91.41,208.01,87.6,209.33,87.98,209.24,90.86,208.97,88.81,209.05,90.18,209.14,90.45,208.01,92.92,209.26,93.03
212.05,92.38,212.29,91.31,211.01,87.39,212.33,87.65,212.24,90.74,211.97,88.71,212.05,89.98,212.14,90.08,211.01,92.82,212.26,92.92
215.05,92.28,215.29,91.22,214.01,87.18,215.33,87.31,215.24,90.62,214.97,88.61,215.04,89.77,215.14,89.7,214,92.73,215.26,92.8
218.05,92.18,218.29,91.12,217.01,86.96,218.32,86.95,218.24,90.49,217.97,88.51,218.04,89.55,218.14,89.32,217,92.63,218.25,92.69
221.05,92.08,221.28,91.02,220,86.74,221.32,86.6,221.24,90.36,220.97,88.4,221.04,89.33,221.13,88.94,220,92.54,221.25,92.58
224.04,91.98,224.28,90.92,223,86.52,224.32,86.26,224.23,90.22,223.96,88.3,224.03,89.11,224.13,88.55,223,92.45,224.25,92.48
227.04,91.88,227.28,90.82,226,86.3,227.32,85.89,227.23,90.08,226.96,88.19,227.03,88.88,227.13,88.14,226,92.36,227.25,92.38
230.04,91.78,230.28,90.72,229,86.06,230.32,85.51,230.23,89.93,229.96,88.09,230.03,88.65,230.13,87.74,228.99,92.28,230.24,92.29
233.04,91.68,233.28,90.62,232,85.83,233.31,85.14,233.23,89.78,232.96,87.98,233.03,88.41,233.13,87.34,231.99,92.19,233.24,92.19
236.04,91.58,236.28,90.52,235,85.59,236.31,84.76,236.23,89.62,235.96,87.88,236.03,88.17,236.12,86.92,234.99,92.11,236.24,92.1
239.03,91.47,239.27,90.42,237.99,85.35,239.31,84.38,239.22,89.46,238.96,87.77,239.03,87.93,239.12,86.51,237.99,92.03,239.24,92
242.03,91.37,242.27,90.33,240.99,85.1,242.31,84,242.22,89.29,241.95,87.66,242.03,87.68,242.12,86.07,240.99,91.95,242.24,91.92
245.03,91.27,245.27,90.23,243.99,84.85,245.31,83.6,245.22,89.13,244.95,87.55,245.02,87.43,245.12,85.66,243.99,91.87,245.24,91.83
248.03,91.17,248.27,90.13,246.99,84.6,248.31,83.22,248.22,88.95,247.95,87.44,248.02,87.17,248.12,85.22,246.99,91.8,248.23,91.74
251.03,91.07,251.27,90.03,249.99,84.34,251.31,82.85,251.22,88.78,250.95,87.33,251.02,86.91,251.12,84.8,249.98,91.72,251.23,91.66
254.03,90.97,254.27,89.93,252.99,84.08,254.3,82.45,254.22,88.61,253.95,87.22,254.02,86.64,254.12,84.37,252.98,91.65,254.23,91.57
257.03,90.87,257.27,89.83,255.99,83.81,257.3,82.04,257.22,88.43,256.95,87.11,257.02,86.37,257.12,83.95,255.98,91.57,257.23,91.48
260.02,90.77,260.26,89.73,258.98,83.55,260.3,81.65,260.22,88.26,259.95,87,260.02,86.1,260.11,83.51,258.98,91.5,260.23,91.4
263.02,90.67,263.26,89.63,261.98,83.27,263.3,81.28,263.21,88.09,262.94,86.89,263.02,85.82,263.11,83.1,261.98,91.42,263.23,91.32
266.02,90.57,266.26,89.52,264.98,83.01,266.3,80.9,266.21,87.91,265.94,86.78,266.02,85.55,266.11,82.67,264.98,91.36,266.23,91.24
269.02,90.46,269.26,89.42,267.98,82.74,269.3,80.51,269.21,87.74,268.94,86.67,269.01,85.26,269.11,82.27,267.98,91.28,269.22,91.16
272.02,90.36,272.26,89.31,270.98,82.47,272.29,80.12,272.21,87.57,271.94,86.56,272.01,84.98,272.11,81.85,270.98,91.21,272.22,91.07
275.02,90.25,275.26,89.21,273.98,82.19,275.29,79.76,275.21,87.41,274.94,86.45,275.01,84.7,275.11,81.46,273.97,91.13,275.22,90.99
278.01,90.15,278.25,89.1,276.97,81.92,278.29,79.41,278.2,87.24,277.94,86.34,278.01,84.42,278.1,81.07,276.97,91.06,278.22,90.91
281.01,90.04,281.25,88.99,279.97,81.64,281.29,79.05,281.2,87.07,280.93,86.23,281.01,84.13,281.1,80.68,279.97,90.99,281.22,90.83
284.01,89.93,284.25,88.88,282.97,81.37,284.29,78.69,284.2,86.91,283.93,86.13,284,83.85,284.1,80.3,282.97,90.92,284.22,90.75
287.01,89.83,287.25,88.77,285.97,81.09,287.29,78.34,287.2,86.75,286.93,86.02,287,83.56,287.1,79.92,285.97,90.84,287.21,90.67
290.01,89.72,290.25,88.66,288.97,80.82,290.28,78,290.2,86.6,289.93,85.91,290,83.27,290.1,79.57,288.96,90.76,290.21,90.59
293.01,89.61,293.25,88.55,291.97,80.55,293.28,77.68,293.2,86.44,292.93,85.8,293,82.98,293.1,79.21,291.96,90.69,293.21,90.51
296,89.51,296.24,88.44,294.97,80.28,296.28,77.36,296.19,86.29,295.93,85.69,296,82.69,296.09,78.87,294.96,90.62,296.21,90.44
299,89.4,299.24,88.33,297.96,80.01,299.28,77.05,299.19,86.14,298.93,85.58,299,82.4,299.09,78.53,297.96,90.55,299.21,90.36
302,89.29,302.24,88.22,300.96,79.75,302.28,76.75,302.19,86,301.92,85.47,302,82.11,302.09,78.21,300.96,90.48,302.21,90.28
305,89.18,305.24,88.1,303.96,79.49,305.27,76.44,305.19,85.86,304.92,85.36,304.99,81.83,305.09,77.89,303.96,90.41,305.21,90.21
308,89.07,308.24,87.99,306.96,79.22,308.27,76.14,308.19,85.72,307.92,85.25,307.99,81.54,308.09,77.58,306.96,90.34,308.2,90.13
311,88.97,311.24,87.87,309.96,78.96,311.27,75.85,311.19,85.59,310.92,85.15,310.99,81.27,311.09,77.27,309.95,90.27,311.2,90.06
313.99,88.86,314.23,87.76,312.95,78.71,314.27,75.57,314.18,85.46,313.92,85.04,313.99,80.99,314.08,76.97,312.95,90.21,314.2,89.99
316.99,88.75,317.23,87.64,315.95,78.46,317.27,75.29,317.18,85.34,316.91,84.93,316.99,80.71,317.08,76.68,315.95,90.14,317.2,89.91
319.99,88.64,320.23,87.52,318.95,78.21,320.27,75.02,320.18,85.22,319.91,84.82,319.98,80.44,320.08,76.39,318.95,90.07,320.19,89.84
322.99,88.54,323.23,87.4,321.95,77.97,323.26,74.75,323.18,85.1,322.91,84.71,322.98,80.16,323.08,76.11,321.95,90.01,323.19,89.77
325.99,88.43,326.23,87.28,324.95,77.72,326.26,74.49,326.18,84.98,325.91,84.6,325.98,79.9,326.08,75.84,324.94,89.94,326.19,89.69
328.98,88.32,329.22,87.17,327.94,77.48,329.26,74.23,329.17,84.87,328.91,84.49,328.98,79.63,329.07,75.57,327.94,89.88,329.19,89.62
331.98,88.22,332.22,87.04,330.94,77.24,332.26,73.98,332.17,84.76,331.9,84.38,331.98,79.37,332.07,75.3,330.94,89.82,332.19,89.55
334.98,88.11,335.22,86.92,333.94,77.01,335.25,73.73,335.17,84.66,334.9,84.27,334.97,79.1,335.07,75.04,333.94,89.75,335.18,89.47
337.98,88,338.22,86.8,336.94,76.78,338.25,73.48,338.17,84.56,337.9,84.16,337.97,78.84,338.07,74.78,336.94,89.69,338.18,89.4
340.98,87.9,341.21,86.67,339.93,76.55,341.25,73.24,341.17,84.45,340.9,84.05,340.97,78.58,341.06,74.53,339.93,89.63,341.18,89.33
343.97,87.8,344.21,86.55,342.93,76.32,344.25,73,344.16,84.36,343.89,83.94,343.97,78.32,344.06,74.28,342.93,89.57,344.18,89.25
346.97,87.69,347.21,86.43,345.93,76.1,347.25,72.76,347.16,84.27,346.89,83.83,346.96,78.06,347.06,74.03,345.93,89.5,347.18,89.18
349.97,87.58,350.21,86.3,348.93,75.87,350.24,72.53,350.16,84.17,349.89,83.72,349.96,77.8,350.06,73.78,348.93,89.44,350.17,89.11
352.97,87.48,353.2,86.18,351.93,75.65,353.24,72.3,353.16,84.08,352.89,83.61,352.96,77.55,353.06,73.54,351.92,89.38,353.17,89.04
355.96,87.38,356.2,86.05,354.92,75.43,356.24,72.07,356.15,83.99,355.88,83.49,355.96,77.29,356.05,73.3,354.92,89.32,356.17,88.96
358.96,87.27,359.2,85.92,357.92,75.21,359.24,71.84,359.15,83.9,358.88,83.38,358.95,77.04,359.05,73.06,357.92,89.25,359.17,88.89
361.96,87.16,362.2,85.8,360.92,74.99,362.23,71.61,362.15,83.81,361.88,83.27,361.95,76.78,362.05,72.82,360.92,89.19,362.16,88.82
364.96,87.06,365.2,85.67,363.92,74.77,365.23,71.39,365.15,83.72,364.88,83.15,364.95,76.53,365.05,72.59,363.92,89.13,365.16,88.75
367.96,86.95,368.19,85.54,366.91,74.55,368.23,71.16,368.15,83.63,367.88,83.04,367.95,76.27,368.04,72.35,366.91,89.07,368.16,88.67
370.95,86.85,371.19,85.41,369.91,74.34,371.23,70.94,371.14,83.55,370.88,82.92,370.95,76.02,371.04,72.12,369.91,89.01,371.16,88.59
373.95,86.74,374.19,85.28,372.91,74.12,374.23,70.72,374.14,83.46,373.87,82.8,373.94,75.76,374.04,71.88,372.91,88.95,374.16,88.52
376.95,86.64,377.19,85.14,375.91,73.91,377.22,70.5,377.14,83.37,376.87,82.68,376.94,75.51,377.04,71.65,375.91,88.89,377.15,88.45
379.95,86.53,380.19,85.01,378.91,73.69,380.22,70.27,380.14,83.28,379.87,82.56,379.94,75.25,380.04,71.41,378.9,88.83,380.15,88.38
382.95,86.42,383.18,84.88,381.9,73.48,383.22,70.05,383.14,83.19,382.87,82.44,382.94,74.99,383.03,71.18,381.9,88.77,383.15,88.3
385.94,86.32,386.18,84.74,384.9,73.26,386.22,69.83,386.13,83.11,385.87,82.32,385.94,74.74,386.03,70.94,384.9,88.71,386.15,88.22
388.94,86.2,389.18,84.61,387.9,73.05,389.22,69.61,389.13,83.01,388.86,82.19,388.93,74.47,389.03,70.71,387.9,88.65,389.15,88.15
391.94,86.09,392.18,84.47,390.9,72.83,392.21,69.39,392.13,82.92,391.86,82.06,391.93,74.21,392.03,70.47,390.9,88.59,392.14,88.08
394.94,85.98,395.18,84.33,393.9,72.61,395.21,69.17,395.13,82.83,394.86,81.93,394.93,73.95,395.03,70.23,393.89,88.53,395.14,88
397.94,85.86,398.17,84.19,396.89,72.39,398.21,68.94,398.12,82.73,397.86,81.8,397.93,73.69,398.02,70,396.89,88.48,398.14,87.93
400.93,85.75,401.17,84.05,399.89,72.18,401.21,68.71,401.12,82.63,400.85,81.66,400.93,73.42,401.02,69.76,399.89,88.42,401.14,87.85
403.93,85.63,404.17,83.9,402.89,71.96,404.2,68.49,404.12,82.53,403.85,81.52,403.92,73.15,404.02,69.52,402.89,88.36,404.13,87.78
406.93,85.51,407.17,83.76,405.89,71.74,407.2,68.26,407.12,82.43,406.85,81.39,406.92,72.88,407.02,69.28,405.88,88.3,407.13,87.7
409.93,85.39,410.16,83.61,408.88,71.52,410.2,68.03,410.12,82.33,409.85,81.24,409.92,72.61,410.01,69.03,408.88,88.24,410.13,87.63
412.92,85.26,413.16,83.46,411.88,71.29,413.2,67.81,413.11,82.22,412.84,81.1,412.92,72.33,413.01,68.79,411.88,88.18,413.13,87.55
415.92,85.14,416.16,83.31,414.88,71.07,416.19,67.57,416.11,82.11,415.84,80.95,415.91,72.06,416.01,68.55,414.88,88.12,416.13,87.47
418.92,85.01,419.16,83.15,417.88,70.85,419.19,67.34,419.11,81.99,418.84,80.8,418.91,71.78,419.01,68.3,417.88,88.06,419.12,87.39
421.92,84.88,422.15,82.99,420.87,70.62,422.19,67.11,422.11,81.88,421.84,80.64,421.91,71.5,422,68.05,420.87,88,422.12,87.3
424.91,84.74,425.15,82.83,423.87,70.4,425.19,66.88,425.1,81.76,424.83,80.49,424.91,71.22,425,67.8,423.87,87.94,425.12,87.22
427.91,84.6,428.15,82.67,426.87,70.17,428.18,66.64,428.1,81.63,427.83,80.32,427.9,70.94,428,67.55,426.87,87.88,428.11,87.14
430.91,84.46,431.15,82.51,429.87,69.94,431.18,66.41,431.1,81.51,430.83,80.16,430.9,70.66,431,67.3,429.87,87.81,431.11,87.05
433.9,84.32,434.14,82.33,432.86,69.71,434.18,66.17,434.09,81.38,433.83,79.99,433.9,70.38,433.99,67.05,432.86,87.75,434.11,86.97
436.9,84.17,437.14,82.16,435.86,69.48,437.18,65.94,437.09,81.25,436.82,79.82,436.89,70.09,436.99,66.8,435.86,87.69,437.11,86.88
439.9,84.02,440.14,81.99,438.86,69.25,440.17,65.7,440.09,81.11,439.82,79.64,439.89,69.8,439.99,66.55,438.86,87.63,440.1,86.79
442.9,83.87,443.13,81.81,441.85,69.02,443.17,65.47,443.09,80.97,442.82,79.46,442.89,69.52,442.99,66.3,441.85,87.57,443.1,86.7
445.89,83.72,446.13,81.63,444.85,68.78,446.17,65.23,446.08,80.82,445.82,79.28,445.89,69.23,445.98,66.05,444.85,87.5,446.1,86.61
448.89,83.56,449.13,81.44,447.85,68.55,449.16,64.99,449.08,80.67,448.81,79.09,448.88,68.94,448.98,65.81,447.85,87.44,449.1,86.51
451.89,83.39,452.13,81.26,450.84,68.32,452.16,64.76,452.08,80.51,451.81,78.9,451.88,68.65,451.98,65.56,450.85,87.38,452.09,86.42
454.88,83.23,455.12,81.07,453.84,68.08,455.16,64.53,455.07,80.36,454.81,78.7,454.88,68.36,454.97,65.32,453.84,87.31,455.09,86.32
457.88,83.06,458.12,80.87,456.84,67.85,458.15,64.29,458.07,80.19,457.8,78.51,457.87,68.07,457.97,65.07,456.84,87.25,458.09,86.22
460.88,82.88,461.12,80.67,459.83,67.62,461.15,64.06,461.07,80.02,460.8,78.3,460.87,67.77,460.97,64.83,459.84,87.18,461.08,86.12
463.87,82.71,464.11,80.47,462.83,67.39,464.15,63.83,464.06,79.85,463.8,78.09,463.87,67.48,463.96,64.58,462.83,87.12,464.08,86.01
466.87,82.53,467.11,80.26,465.83,67.15,467.14,63.6,467.06,79.67,466.79,77.88,466.86,67.17,466.96,64.35,465.83,87.05,467.07,85.91
469.87,82.34,470.11,80.05,468.82,66.92,470.14,63.37,470.06,79.49,469.79,77.67,469.86,66.87,469.96,64.1,468.83,86.99,470.07,85.8
472.86,82.15,473.1,79.84,471.82,66.69,473.14,63.14,473.05,79.3,472.79,77.45,472.86,66.57,472.95,63.86,471.82,86.92,473.07,85.69
475.86,81.95,476.1,79.61,474.82,66.46,476.13,62.91,476.05,79.11,475.78,77.23,475.85,66.26,475.95,63.62,474.82,86.85,476.06,85.57
478.86,81.75,479.1,79.39,477.81,66.23,479.13,62.68,479.05,78.9,478.78,77.01,478.85,65.94,478.94,63.37,477.81,86.78,479.06,85.45
481.85,81.56,482.09,79.16,480.81,66,482.13,62.45,482.04,78.7,481.77,76.78,481.85,65.63,481.94,63.13,480.81,86.72,482.06,85.33
484.85,81.35,485.09,78.93,483.8,65.78,485.12,62.22,485.04,78.49,484.77,76.54,484.84,65.32,484.94,62.88,483.81,86.65,485.05,85.21
487.84,81.14,488.08,78.69,486.8,65.55,488.12,61.99,488.04,78.28,487.77,76.31,487.84,64.99,487.93,62.64,486.8,86.59,488.05,85.09
490.84,80.92,491.08,78.44,489.8,65.33,491.11,61.75,491.03,78.05,490.76,76.07,490.83,64.66,490.93,62.39,489.8,86.52,491.05,84.96
493.84,80.7,494.08,78.2,492.79,65.11,494.11,61.52,494.03,77.83,493.76,75.83,493.83,64.34,493.93,62.14,492.8,86.45,494.04,84.83
496.83,80.47,497.07,77.94,495.79,64.89,497.11,61.28,497.02,77.59,496.75,75.58,496.83,64.01,496.92,61.88,495.79,86.39,497.04,84.69
499.83,80.25,500.07,77.68,498.78,64.66,500.1,61.04,500.02,77.36,499.75,75.33,499.82,63.67,499.92,61.63,498.79,86.32,500.03,84.55
502.83,80.01,503.06,77.42,501.78,64.45,503.1,60.8,503.01,77.11,502.75,75.07,502.82,63.32,502.91,61.37,501.78,86.26,503.03,84.4
505.82,79.76,506.06,77.16,504.78,64.23,506.09,60.56,506.01,76.87,505.74,74.81,505.81,62.96,505.91,61.11,504.78,86.19,506.03,84.26
508.82,79.52,509.06,76.88,507.77,64.01,509.09,60.32,509.01,76.62,508.74,74.55,508.81,62.61,508.9,60.84,507.77,86.13,509.02,84.11
511.81,79.27,512.05,76.61,510.77,63.79,512.08,60.07,512,76.35,511.74,74.28,511.8,62.26,511.9,60.57,510.77,86.06,512.02,83.95
514.81,79.02,515.05,76.33,513.77,63.58,515.08,59.82,515,76.09,514.73,74.01,514.8,61.9,514.9,60.3,513.77,86,515.01,83.79
517.81,78.76,518.04,76.04,516.76,63.36,518.08,59.57,518,75.83,517.73,73.73,517.8,61.54,517.89,60.03,516.76,85.93,518.01,83.63
520.8,78.49,521.04,75.75,519.76,63.15,521.07,59.32,520.99,75.55,520.72,73.45,520.79,61.17,520.89,59.75,519.76,85.86,521.01,83.45
523.79,78.22,524.03,75.46,522.75,62.93,524.07,59.07,523.98,75.29,523.72,73.16,523.79,60.8,523.88,59.48,522.75,85.8,524,83.28
526.79,77.94,527.03,75.17,525.75,62.72,527.06,58.81,526.98,75.01,526.71,72.88,526.78,60.39,526.88,59.19,525.75,85.73,526.99,83.1
529.78,77.66,530.02,74.87,528.74,62.51,530.06,58.55,529.97,74.73,529.71,72.59,529.78,60.02,529.87,58.91,528.74,85.67,529.99,82.92
532.78,77.38,533.02,74.56,531.74,62.29,533.05,58.29,532.97,74.45,532.7,72.3,532.77,59.65,532.87,58.62,531.74,85.6,532.98,82.74
535.78,77.09,536.01,74.25,534.73,62.08,536.05,58.03,535.97,74.16,535.7,72.01,535.77,59.26,535.86,58.34,534.73,85.54,535.98,82.55
538.77,76.79,539.01,73.94,537.73,61.87,539.05,57.75,538.96,73.86,538.69,71.7,538.77,58.87,538.86,58.05,537.73,85.47,538.98,82.35
541.77,76.5,542,73.63,540.72,61.66,542.04,57.49,541.96,73.57,541.69,71.4,541.76,58.47,541.85,57.75,540.72,85.4,541.97,82.16
544.76,76.2,545,73.31,543.72,61.45,545.03,57.22,544.95,73.27,544.68,71.09,544.75,58.07,544.85,57.45,543.72,85.34,544.96,81.95
547.75,75.89,547.99,72.98,546.71,61.24,548.03,56.95,547.94,72.98,547.68,70.77,547.75,57.67,547.84,57.15,546.71,85.27,547.96,81.74
550.75,75.58,550.99,72.67,549.71,61.03,551.02,56.68,550.94,72.67,550.67,70.46,550.74,57.27,550.84,56.85,549.71,85.2,550.95,81.53
553.74,75.26,553.98,72.34,552.7,60.82,554.01,56.41,553.93,72.37,553.66,70.15,553.74,56.88,553.83,56.54,552.7,85.14,553.95,81.32
556.74,74.95,556.98,72,555.69,60.61,557.01,56.13,556.93,72.06,556.66,69.82,556.73,56.47,556.83,56.24,555.7,85.07,556.94,81.09
559.73,74.63,559.97,71.67,558.69,60.41,560,55.85,559.92,71.75,559.65,69.49,559.73,56.07,559.82,55.92,558.69,85.01,559.94,80.87
562.72,74.3,562.96,71.34,561.68,60.2,563,55.57,562.91,71.44,562.65,69.19,562.72,55.66,562.81,55.62,561.69,84.94,562.93,80.64
565.72,73.97,565.96,71,564.68,60,565.99,55.3,565.91,71.14,565.64,68.87,565.71,55.25,565.81,55.31,564.68,84.87,565.92,80.41
568.71,73.64,568.95,70.66,567.67,59.79,568.98,55.02,568.9,70.82,568.63,68.53,568.71,54.85,568.8,54.99,567.67,84.81,568.92,80.17
571.71,73.3,571.95,70.32,570.66,59.59,571.98,54.74,571.9,70.5,571.63,68.19,571.7,54.45,571.79,54.68,570.67,84.74,571.91,79.93
574.7,72.96,574.94,69.97,573.66,59.39,574.97,54.45,574.89,70.18,574.62,67.87,574.7,54.02,574.79,54.36,573.66,84.67,574.91,79.69
577.69,72.62,577.93,69.63,576.65,59.19,577.96,54.17,577.88,69.86,577.61,67.52,577.69,53.62,577.78,54.05,576.65,84.6,577.9,79.44
580.69,72.28,580.92,69.28,579.64,58.99,580.96,53.89,580.88,69.54,580.61,67.18,580.68,53.22,580.77,53.73,579.65,84.53,580.89,79.19
583.68,71.93,583.92,68.93,582.64,58.78,583.95,53.61,583.87,69.22,583.6,66.82,583.67,52.8,583.77,53.41,582.64,84.47,583.88,78.94
586.67,71.59,586.91,68.58,585.63,58.59,586.94,53.32,586.86,68.89,586.59,66.47,586.67,52.37,586.76,53.09,585.63,84.4,586.88,78.68
589.67,71.23,589.9,68.23,588.62,58.39,589.94,53.04,589.85,68.56,589.59,66.13,589.66,51.98,589.75,52.77,588.63,84.33,589.87,78.42
592.66,70.88,592.9,67.88,591.61,58.2,592.93,52.76,592.85,68.23,592.58,65.78,592.65,51.57,592.75,52.46,591.62,84.26,592.86,78.15
595.65,70.52,595.89,67.52,594.61,58,595.92,52.47,595.84,67.91,595.57,65.42,595.65,51.18,595.74,52.14,594.61,84.19,595.86,77.89
598.64,70.15,598.88,67.17,597.6,57.81,598.91,52.19,598.83,67.58,598.56,65.07,598.64,50.77,598.73,51.82,597.6,84.12,598.85,77.62
601.63,69.78,601.87,66.81,600.59,57.62,601.91,51.9,601.82,67.25,601.56,64.72,601.63,50.37,601.72,51.49,600.6,84.05,601.84,77.34
604.63,69.43,604.87,66.45,603.58,57.43,604.9,51.61,604.82,66.92,604.55,64.37,604.62,49.97,604.72,51.16,603.59,83.98,604.83,77.07
607.62,69.07,607.86,66.09,606.57,57.24,607.89,51.33,607.81,66.6,607.54,64,607.62,49.59,607.71,50.85,606.58,83.91,607.83,76.79
610.61,68.71,610.85,65.73,609.57,57.05,610.88,51.05,610.8,66.26,610.53,63.64,610.61,49.19,610.7,50.53,609.57,83.84,610.82,76.51
613.6,68.34,613.84,65.38,612.56,56.87,613.87,50.77,613.79,65.93,613.53,63.28,613.6,48.8,613.69,50.21,612.57,83.76,613.81,76.23
616.6,67.98,616.83,65.03,615.55,56.68,616.87,50.49,616.79,65.6,616.52,62.93,616.59,48.39,616.69,49.89,615.56,83.69,616.8,75.94
619.59,67.61,619.83,64.65,618.54,56.5,619.86,50.21,619.78,65.26,619.51,62.57,619.58,48.01,619.68,49.57,618.55,83.62,619.79,75.65
622.58,67.24,622.82,64.3,621.54,56.32,622.85,49.94,622.77,64.93,622.5,62.22,622.57,47.62,622.67,49.26,621.54,83.55,622.78,75.36
625.57,66.87,625.81,63.95,624.53,56.14,625.84,49.66,625.76,64.61,625.49,61.85,625.57,47.22,625.66,48.94,624.54,83.47,625.78,75.07
628.56,66.48,628.8,63.59,627.52,55.96,628.83,49.38,628.75,64.28,628.49,61.49,628.56,46.85,628.65,48.62,627.53,83.4,628.77,74.78
631.56,66.12,631.79,63.23,630.51,55.79,631.83,49.1,631.74,63.94,631.48,61.13,631.55,46.46,631.64,48.31,630.52,83.32,631.76,74.48
634.55,65.75,634.79,62.87,633.5,55.61,634.82,48.83,634.74,63.61,634.47,60.76,634.54,46.1,634.64,47.99,633.51,83.25,634.75,74.18
637.54,65.36,637.78,62.52,636.49,55.44,637.81,48.56,637.73,63.28,637.46,60.42,637.53,45.74,637.63,47.69,636.5,83.18,637.74,73.88
640.53,64.99,640.77,62.17,639.48,55.27,640.8,48.29,640.72,62.95,640.45,60.06,640.52,45.37,640.62,47.39,639.49,83.1,640.73,73.58
643.52,64.63,643.76,61.81,642.48,55.1,643.79,48.02,643.71,62.6,643.44,59.7,643.51,45.02,643.61,47.08,642.49,83.02,643.72,73.28
646.51,64.26,646.75,61.46,645.47,54.94,646.78,47.76,646.7,62.28,646.43,59.35,646.5,44.65,646.6,46.78,645.47,82.95,646.71,72.98
649.5,63.89,649.74,61.11,648.46,54.78,649.77,47.5,649.69,61.97,649.42,58.99,649.5,44.29,649.59,46.48,648.47,82.87,649.71,72.67
652.49,63.53,652.73,60.76,651.45,54.61,652.76,47.24,652.68,61.63,652.41,58.64,652.49,43.93,652.58,46.18,651.46,82.79,652.7,72.36
655.48,63.16,655.72,60.41,654.44,54.46,655.75,46.98,655.67,61.31,655.4,58.28,655.48,43.56,655.57,45.88,654.45,82.72,655.69,72.05
658.47,62.78,658.71,60.06,657.43,54.3,658.74,46.72,658.66,60.99,658.39,57.94,658.47,43.22,658.56,45.59,657.44,82.64,658.68,71.74
661.46,62.41,661.7,59.71,660.42,54.15,661.73,46.47,661.65,60.67,661.38,57.58,661.46,42.87,661.55,45.3,660.43,82.56,661.67,71.43
664.45,62.05,664.69,59.36,663.41,54,664.72,46.22,664.64,60.36,664.37,57.22,664.45,42.54,664.54,45.01,663.42,82.49,664.66,71.13
667.44,61.67,667.68,59.02,666.4,53.85,667.71,45.97,667.63,60.04,667.36,56.87,667.44,42.2,667.53,44.72,666.41,82.41,667.65,70.81
670.43,61.32,670.67,58.67,669.39,53.71,670.7,45.72,670.62,59.72,670.35,56.53,670.43,41.86,670.52,44.45,669.4,82.33,670.64,70.5
673.42,60.93,673.66,58.33,672.38,53.56,673.69,45.48,673.61,59.41,673.34,56.18,673.42,41.52,673.51,44.17,672.39,82.25,673.63,70.19
676.41,60.58,676.65,57.99,675.37,53.42,676.68,45.24,676.6,59.1,676.33,55.85,676.41,41.19,676.5,43.89,675.37,82.18,676.61,69.88
679.4,60.22,679.64,57.64,678.36,53.29,679.67,45,679.59,58.78,679.32,55.49,679.4,40.87,679.49,43.62,678.37,82.1,679.61,69.56
682.39,59.87,682.63,57.31,681.35,53.15,682.66,44.77,682.58,58.49,682.31,55.14,682.38,40.56,682.48,43.35,681.36,82.02,682.59,69.25
685.38,59.51,685.62,56.97,684.34,53.02,685.65,44.54,685.57,58.17,685.3,54.81,685.37,40.24,685.47,43.08,684.34,81.95,685.58,68.93
688.37,59.14,688.61,56.64,687.33,52.89,688.64,44.31,688.56,57.87,688.29,54.47,688.36,39.92,688.45,42.82,687.33,81.87,688.57,68.62
691.35,58.78,691.59,56.3,690.31,52.77,691.63,44.09,691.54,57.58,691.28,54.13,691.35,39.61,691.45,42.56,690.32,81.8,691.56,68.31
694.34,58.43,694.58,55.96,693.3,52.64,694.61,43.86,694.53,57.27,694.26,53.81,694.34,39.3,694.43,42.3,693.31,81.72,694.55,67.99
697.33,58.07,697.57,55.63,696.29,52.52,697.6,43.64,697.52,56.98,697.25,53.48,697.33,39,697.42,42.04,696.3,81.65,697.54,67.67
700.32,57.72,700.56,55.3,699.28,52.4,700.59,43.43,700.51,56.69,700.24,53.16,700.32,38.7,700.41,41.79,699.29,81.57,700.53,67.36
703.31,57.38,703.55,54.98,702.27,52.29,703.58,43.21,703.5,56.4,703.23,52.82,703.3,38.4,703.4,41.54,702.28,81.5,703.52,67.05
706.3,57.05,706.54,54.65,705.26,52.17,706.57,43,706.49,56.11,706.22,52.5,706.29,38.11,706.39,41.3,705.26,81.43,706.5,66.74
709.29,56.71,709.52,54.34,708.24,52.06,709.55,42.8,709.48,55.82,709.21,52.17,709.28,37.82,709.38,41.06,708.25,81.36,709.49,66.42
712.28,56.38,712.51,54.02,711.23,51.95,712.54,42.59,712.46,55.54,712.19,51.85,712.27,37.53,712.36,40.82,711.24,81.29,712.48,66.11
715.26,56.06,715.5,53.71,714.22,51.84,715.53,42.39,715.45,55.25,715.18,51.54,715.26,37.25,715.35,40.58,714.23,81.22,715.47,65.8
718.25,55.74,718.49,53.4,717.21,51.74,718.52,42.19,718.44,54.97,718.17,51.24,718.24,36.96,718.34,40.35,717.22,81.14,718.45,65.5
721.24,55.41,721.48,53.09,720.19,51.63,721.51,41.99,721.42,54.69,721.16,50.92,721.23,36.68,721.33,40.12,720.2,81.08,721.44,65.19
724.22,55.1,724.46,52.78,723.18,51.53,724.49,41.8,724.41,54.42,724.14,50.61,724.22,36.4,724.31,39.9,723.19,81.01,724.43,64.88
727.21,54.78,727.45,52.48,726.17,51.44,727.48,41.61,727.4,54.14,727.13,50.3,727.21,36.13,727.3,39.67,726.18,80.94,727.42,64.58
730.2,54.47,730.44,52.18,729.16,51.34,730.47,41.42,730.39,53.87,730.12,49.99,730.19,35.86,730.29,39.45,729.17,80.87,730.4,64.27
733.18,54.16,733.42,51.88,732.14,51.24,733.45,41.23,733.37,53.59,733.1,49.7,733.18,35.59,733.27,39.23,732.15,80.8,733.39,63.98
736.17,53.85,736.41,51.58,735.13,51.15,736.44,41.05,736.36,53.32,736.09,49.39,736.16,35.32,736.26,39.01,735.14,80.74,736.38,63.67
739.16,53.55,739.39,51.29,738.12,51.06,739.43,40.86,739.35,53.06,739.08,49.09,739.15,35.06,739.25,38.8,738.13,80.67,739.36,63.38
742.14,53.25,742.38,50.99,741.11,50.97,742.41,40.68,742.33,52.79,742.06,48.8,742.14,34.79,742.23,38.59,741.11,80.6,742.35,63.08
745.13,52.95,745.37,50.7,744.09,50.88,745.4,40.51,745.32,52.53,745.05,48.51,745.12,34.54,745.22,38.37,744.1,80.54,745.33,62.79
748.11,52.66,748.35,50.41,747.08,50.8,748.39,40.33,748.31,52.26,748.04,48.22,748.11,34.28,748.21,38.17,747.08,80.48,748.32,62.49
751.1,52.37,751.34,50.13,750.06,50.71,751.37,40.16,751.29,52,751.02,47.93,751.1,34.02,751.19,37.96,750.07,80.42,751.31,62.2
754.09,52.07,754.33,49.84,753.05,50.63,754.36,39.98,754.28,51.74,754.01,47.64,754.08,33.76,754.18,37.75,753.06,80.35,754.29,61.91
757.07,51.78,757.31,49.56,756.03,50.55,757.34,39.81,757.26,51.48,756.99,47.35,757.07,33.51,757.16,37.55,756.04,80.29,757.28,61.62
760.06,51.49,760.3,49.28,759.02,50.47,760.33,39.65,760.25,51.22,759.98,47.08,760.05,33.26,760.15,37.35,759.03,80.23,760.26,61.34
763.04,51.2,763.28,49,762,50.39,763.31,39.48,763.23,50.97,762.96,46.79,763.04,33.02,763.13,37.15,762.01,80.17,763.25,61.05
766.03,50.93,766.27,48.72,764.99,50.32,766.3,39.32,766.22,50.71,765.95,46.51,766.03,32.77,766.12,36.96,765,80.11,766.24,60.77
769.02,50.64,769.25,48.45,767.98,50.25,769.29,39.15,769.2,50.46,768.94,46.24,769.01,32.52,769.11,36.76,767.98,80.05,769.22,60.49
772,50.37,772.24,48.17,770.96,50.18,772.27,38.99,772.19,50.21,771.92,45.97,771.99,32.28,772.09,36.57,770.97,79.99,772.2,60.21
774.98,50.08,775.22,47.9,773.94,50.1,775.26,38.83,775.17,49.96,774.9,45.69,774.98,32.04,775.07,36.37,773.95,79.93,775.19,59.92
777.97,49.81,778.21,47.63,776.93,50.03,778.24,38.67,778.16,49.71,777.89,45.42,777.96,31.8,778.06,36.18,776.94,79.87,778.17,59.64
780.95,49.54,781.19,47.36,779.91,49.97,781.22,38.51,781.14,49.46,780.87,45.15,780.95,31.56,781.04,35.98,779.92,79.82,781.16,59.37
783.94,49.26,784.18,47.1,782.9,49.9,784.21,38.36,784.13,49.21,783.86,44.88,783.93,31.33,784.03,35.8,782.91,79.76,784.14,59.1
786.92,49,787.16,46.83,785.88,49.84,787.19,38.2,787.11,48.97,786.84,44.61,786.92,31.09,787.01,35.61,785.89,79.71,787.13,58.82
789.91,48.72,790.15,46.57,788.87,49.77,790.18,38.05,790.09,48.72,789.83,44.35,789.9,30.86,790,35.42,788.88,79.64,790.11,58.55
792.89,48.46,793.13,46.3,791.85,49.71,793.16,37.9,793.08,48.48,792.81,44.1,792.89,30.63,792.98,35.23,791.86,79.59,793.1,58.28
795.87,48.19,796.11,46.04,794.83,49.65,796.14,37.74,796.06,48.24,795.79,43.83,795.87,30.4,795.96,35.05,794.84,79.53,796.08,58.01
798.86,47.92,799.1,45.78,797.82,49.59,799.13,37.59,799.05,48,798.78,43.57,798.85,30.17,798.95,34.87,797.83,79.48,799.06,57.74
801.84,47.65,802.08,45.52,800.8,49.53,802.11,37.45,802.03,47.76,801.76,43.31,801.84,29.94,801.93,34.68,800.81,79.42,802.05,57.48
804.82,47.39,805.06,45.26,803.78,49.47,805.09,37.29,805.01,47.52,804.74,43.05,804.82,29.71,804.91,34.5,803.79,79.37,805.03,57.21
807.81,47.14,808.05,45,806.77,49.42,808.08,37.14,808,47.28,807.73,42.8,807.8,29.49,807.9,34.32,806.78,79.31,808.01,56.94
810.79,46.86,811.03,44.74,809.75,49.36,811.06,37,810.98,47.04,810.71,42.55,810.79,29.26,810.88,34.14,809.76,79.26,811,56.68
813.77,46.61,814.01,44.49,812.73,49.31,814.04,36.85,813.96,46.81,813.69,42.3,813.77,29.04,813.86,33.96,812.74,79.21,813.98,56.41
816.76,46.35,816.99,44.24,815.71,49.25,817.02,36.7,816.94,46.57,816.68,42.05,816.75,28.81,816.85,33.77,815.73,79.15,816.96,56.15
819.74,46.09,819.98,43.98,818.7,49.2,820.01,36.56,819.93,46.34,819.66,41.8,819.73,28.59,819.83,33.6,818.71,79.1,819.94,55.89
822.72,45.83,822.96,43.73,821.68,49.16,822.99,36.41,822.91,46.1,822.64,41.55,822.72,28.37,822.81,33.42,821.69,79.04,822.93,55.63
825.7,45.57,825.94,43.47,824.66,49.11,825.97,36.27,825.89,45.87,825.62,41.3,825.7,28.15,825.79,33.24,824.67,78.99,825.91,55.37
828.69,45.32,828.92,43.22,827.64,49.06,828.95,36.13,828.87,45.63,828.6,41.06,828.68,27.94,828.78,33.07,827.66,78.93,828.89,55.11
831.67,45.06,831.9,42.97,830.63,49.02,831.94,35.98,831.86,45.4,831.59,40.81,831.66,27.72,831.76,32.89,830.64,78.88,831.87,54.85
834.65,44.81,834.89,42.72,833.61,48.97,834.92,35.84,834.84,45.17,834.57,40.56,834.64,27.5,834.74,32.71,833.62,78.83,834.85,54.59
837.63,44.55,837.87,42.47,836.59,48.93,837.9,35.7,837.82,44.93,837.55,40.32,837.63,27.29,837.72,32.54,836.6,78.77,837.84,54.34
840.61,44.3,840.85,42.22,839.57,48.89,840.88,35.56,840.8,44.7,840.53,40.08,840.61,27.08,840.7,32.37,839.58,78.72,840.82,54.08
843.59,44.05,843.83,41.98,842.55,48.84,843.86,35.42,843.78,44.46,843.51,39.84,843.59,26.86,843.68,32.19,842.56,78.66,843.8,53.82
846.57,43.79,846.81,41.73,845.53,48.8,846.84,35.28,846.76,44.23,846.49,39.6,846.57,26.65,846.66,32.02,845.54,78.61,846.78,53.57
849.56,43.54,849.79,41.48,848.51,48.75,849.83,35.14,849.75,44,849.47,39.35,849.55,26.44,849.65,31.85,848.53,78.55,849.76,53.31
852.54,43.29,852.78,41.23,851.49,48.71,852.81,35,852.73,43.76,852.45,39.12,852.53,26.23,852.63,31.67,851.5,78.5,852.74,53.05
855.52,43.04,855.76,40.98,854.47,48.67,855.79,34.86,855.71,43.53,855.44,38.88,855.51,26.02,855.61,31.5,854.49,78.44,855.72,52.8
858.5,42.79,858.74,40.74,857.46,48.63,858.77,34.72,858.69,43.29,858.42,38.64,858.49,25.81,858.59,31.33,857.47,78.39,858.7,52.54
861.48,42.53,861.72,40.49,860.44,48.59,861.75,34.58,861.67,43.05,861.4,38.4,861.47,25.6,861.57,31.16,860.45,78.33,861.68,52.28
864.46,42.28,864.7,40.24,863.42,48.55,864.73,34.44,864.65,42.82,864.38,38.16,864.45,25.39,864.55,30.99,863.43,78.27,864.66,52.03
867.44,42.03,867.68,40,866.4,48.51,867.71,34.3,867.63,42.58,867.36,37.93,867.44,25.19,867.53,30.82,866.41,78.22,867.64,51.77
870.42,41.77,870.66,39.75,869.38,48.47,870.69,34.17,870.61,42.34,870.34,37.69,870.42,24.98,870.51,30.65,869.39,78.16,870.62,51.52
873.4,41.52,873.64,39.5,872.36,48.43,873.67,34.03,873.59,42.1,873.32,37.45,873.39,24.77,873.49,30.48,872.37,78.11,873.6,51.26
876.38,41.27,876.62,39.26,875.34,48.39,876.65,33.89,876.57,41.86,876.3,37.21,876.37,24.57,876.47,30.31,875.35,78.05,876.58,51
879.36,41.02,879.6,39.01,878.32,48.35,879.63,33.76,879.55,41.62,879.28,36.97,879.35,24.37,879.45,30.14,878.33,77.99,879.56,50.74
882.34,40.76,882.58,38.76,881.3,48.31,882.61,33.63,882.53,41.38,882.26,36.74,882.33,24.16,882.43,29.98,881.31,77.93,882.54,50.48
885.32,40.5,885.56,38.51,884.28,48.27,885.59,33.49,885.5,41.13,885.24,36.5,885.31,23.96,885.41,29.81,884.29,77.88,885.52,50.22
888.3,40.25,888.54,38.26,887.26,48.23,888.57,33.36,888.49,40.88,888.22,36.26,888.3,23.76,888.39,29.64,887.27,77.82,888.5,49.96
891.27,39.99,891.51,38.01,890.24,48.2,891.54,33.22,891.46,40.63,891.19,36.02,891.27,23.56,891.37,29.47,890.24,77.75,891.48,49.69
894.25,39.74,894.5,37.76,893.21,48.16,894.53,33.09,894.44,40.38,894.17,35.78,894.25,23.37,894.35,29.31,893.22,77.69,894.46,49.43
897.23,39.48,897.47,37.51,896.19,48.12,897.5,32.96,897.42,40.13,897.15,35.54,897.23,23.18,897.32,29.14,896.2,77.63,897.44,49.16
900.21,39.22,900.45,37.25,899.17,48.07,900.48,32.82,900.4,39.87,900.13,35.3,900.21,22.98,900.3,28.98,899.18,77.57,900.41,48.9
903.19,38.96,903.43,37,902.15,48.03,903.46,32.69,903.38,39.62,903.11,35.06,903.19,22.78,903.28,28.81,902.16,77.51,903.4,48.63
906.17,38.7,906.41,36.74,905.13,48,906.44,32.56,906.36,39.36,906.09,34.81,906.17,22.59,906.26,28.65,905.14,77.45,906.37,48.36
909.14,38.43,909.39,36.49,908.11,47.96,909.42,32.42,909.33,39.09,909.06,34.57,909.14,22.4,909.24,28.48,908.12,77.38,909.35,48.08
912.12,38.17,912.36,36.23,911.08,47.92,912.4,32.29,912.31,38.82,912.04,34.32,912.12,22.2,912.22,28.32,911.1,77.32,912.33,47.81
915.1,37.9,915.34,35.97,914.06,47.88,915.37,32.16,915.28,38.55,915.02,34.08,915.1,22.01,915.2,28.16,914.07,77.26,915.3,47.53
918.08,37.64,918.32,35.71,917.04,47.84,918.35,32.02,918.27,38.28,918,33.83,918.08,21.82,918.17,28.01,917.05,77.19,918.28,47.25
921.05,37.37,921.29,35.45,920.02,47.8,921.33,31.89,921.24,38,920.98,33.57,921.06,21.63,921.15,27.84,920.03,77.13,921.26,46.97
924.03,37.11,924.27,35.19,923,47.76,924.31,31.76,924.22,37.72,923.95,33.33,924.04,21.44,924.13,27.68,923.01,77.06,924.24,46.68
927.01,36.83,927.25,34.93,925.97,47.72,927.29,31.63,927.2,37.44,926.93,33.07,927.01,21.24,927.11,27.52,925.98,77,927.22,46.38
929.99,36.56,930.23,34.66,928.95,47.68,930.26,31.5,930.17,37.15,929.91,32.82,929.99,21.06,930.08,27.36,928.96,76.93,930.19,46.09
932.97,36.29,933.21,34.39,931.93,47.64,933.24,31.37,933.15,36.86,932.88,32.56,932.97,20.87,933.06,27.2,931.94,76.87,933.17,45.79
935.94,36.01,936.18,34.12,934.91,47.6,936.22,31.23,936.13,36.56,935.86,32.3,935.95,20.67,936.04,27.04,934.92,76.8,936.15,45.5
938.92,35.73,939.16,33.85,937.88,47.56,939.2,31.1,939.11,36.26,938.84,32.04,938.92,20.48,939.02,26.88,937.89,76.73,939.12,45.19
941.9,35.45,942.14,33.58,940.86,47.51,942.17,30.97,942.08,35.97,941.81,31.78,941.9,20.3,941.99,26.71,940.87,76.66,942.1,44.88
944.87,35.17,945.11,33.3,943.84,47.47,945.15,30.83,945.06,35.67,944.79,31.51,944.88,20.11,944.97,26.55,943.85,76.59,945.08,44.57
947.85,34.9,948.09,33.02,946.81,47.43,948.12,30.69,948.03,35.36,947.77,31.24,947.85,19.92,947.95,26.39,946.82,76.52,948.05,44.25
950.82,34.61,951.07,32.74,949.79,47.38,951.1,30.56,951.01,35.04,950.74,30.97,950.83,19.73,950.92,26.23,949.8,76.45,951.03,43.93
953.8,34.33,954.04,32.46,952.77,47.34,954.08,30.42,953.99,34.73,953.72,30.7,953.81,19.53,953.9,26.07,952.78,76.37,954.01,43.61
956.78,34.05,957.02,32.18,955.75,47.3,957.05,30.27,956.96,34.41,956.69,30.42,956.78,19.34,956.88,25.91,955.75,76.3,956.98,43.27
959.75,33.75,959.99,31.89,958.72,47.25,960.03,30.15,959.94,34.09,959.67,30.14,959.76,19.15,959.85,25.74,958.73,76.23,959.96,42.95
962.73,33.46,962.97,31.6,961.7,47.21,963.01,30.03,962.91,33.76,962.65,29.86,962.73,18.95,962.83,25.58,961.7,76.16,962.93,42.61
965.7,33.17,965.95,31.31,964.67,47.16,965.98,29.89,965.89,33.44,965.62,29.57,965.71,18.76,965.8,25.43,964.68,76.08,965.91,42.27
968.68,32.89,968.92,31.03,967.65,47.12,968.96,29.76,968.86,33.11,968.6,29.29,968.68,18.57,968.78,25.26,967.65,76,968.88,41.92
971.65,32.6,971.9,30.73,970.62,47.08,971.93,29.63,971.84,32.77,971.57,29,971.66,18.38,971.76,25.1,970.63,75.93,971.86,41.56
974.63,32.31,974.87,30.44,973.6,47.03,974.91,29.5,974.81,32.44,974.55,28.7,974.64,18.19,974.73,24.95,973.6,75.85,974.83,41.21
977.6,32.01,977.85,30.14,976.57,46.98,977.89,29.37,977.79,32.11,977.52,28.41,977.61,18.01,977.71,24.79,976.58,75.78,977.81,40.86
980.58,31.7,980.82,29.85,979.55,46.94,980.86,29.24,980.77,31.78,980.5,28.11,980.59,17.82,980.68,24.63,979.55,75.7,980.78,40.5
983.55,31.41,983.8,29.55,982.52,46.89,983.83,29.11,983.74,31.45,983.47,27.8,983.56,17.63,983.66,24.47,982.53,75.63,983.76,40.13
986.53,31.11,986.77,29.25,985.5,46.84,986.81,28.98,986.71,31.12,986.44,27.51,986.54,17.44,986.63,24.31,985.5,75.55,986.73,39.78
989.5,30.8,989.75,28.94,988.47,46.8,989.78,28.85,989.69,30.8,989.42,27.2,989.51,17.25,989.6,24.15,988.48,75.47,989.71,39.4
992.48,30.5,992.72,28.64,991.45,46.75,992.76,28.72,992.66,30.47,992.39,26.91,992.48,17.07,992.58,23.99,991.45,75.4,992.68,39.03
995.45,30.21,995.69,28.33,994.42,46.7,995.73,28.59,995.64,30.15,995.37,26.6,995.46,16.88,995.55,23.83,994.43,75.32,995.65,38.66
998.38,29.9,998.62,28.03,997.37,46.65,998.66,28.47,998.56,29.81,998.3,26.3,998.39,16.7,998.48,23.67,997.38,75.24,998.58,38.28
996.38,29.23,996.32,27.45,999.36,46.58,996.32,28.21,996.31,29.35,996.46,25.86,996.4,16.35,996.43,23.39,999.34,75.01,996.32,37.75
996.28,28.95,996.35,26.74,996.21,46.53,996.34,27.9,996.37,28,996.29,25.1,996.29,16.05,996.28,23.23,996.23,75,996.37,36.27
996.67,24.21,996.7,21.97,996.59,45.32,996.69,24.21,996.7,23.43,996.65,21.25,996.66,12.19,996.66,19.36,996.48,73.2,996.7,31.19
997.06,19.02,997.1,16.92,996.85,41.95,997.09,20.23,997.1,18.75,997.05,17.31,997.06,8.308,997.05,15.09,996.9,68.4,997.1,25.94
997.43,13.83,997.46,11.93,997.24,38.07,997.46,16.14,997.45,14.29,997.41,13.43,997.41,4.86,997.42,10.76,997.28,63.19,997.45,20.65
997.74,8.76,997.77,7.132,997.58,33.93,997.77,12.09,997.76,10.24,997.72,9.827,997.64,4.026,997.72,6.875,997.62,57.85,997.76,15.57
997.99,4.686,998,3.483,997.88,29.72,998.04,8.277,998.02,6.762,997.93,7.281,997.97,4.024,997.98,3.873,997.91,52.39,998.03,10.87
998.12,3.237,998.19,3.019,998.14,25.55,998.26,4.994,998.13,5.309,998.16,6.948,998.22,4.024,998.15,3.031,998.17,46.88,998.25,7.025
998.41,3.232,998.43,3.011,998.37,21.42,998.4,3.017,998.41,5.306,998.4,6.94,998.45,4.024,998.41,3.026,998.39,41.4,998.34,5.587
998.61,3.235,998.63,3.011,998.57,17.36,998.6,2.994,998.62,5.302,998.6,6.937,998.64,4.025,998.62,3.018,998.59,36.01,998.6,5.588
998.79,3.222,998.8,3.012,998.74,13.47,998.79,2.999,998.79,5.298,998.78,6.928,998.81,4.024,998.79,3.029,998.76,30.68,998.78,5.587
998.94,3.213,998.95,3.012,998.89,9.867,998.94,2.999,998.95,5.295,998.93,6.922,998.96,4.024,998.94,3.026,998.91,25.52,998.94,5.582
999.07,3.207,999.08,3.011,998.98,7.055,999.08,3.004,999.08,5.285,999.07,6.92,999.08,4.025,999.08,3.024,999.04,20.51,999.07,5.582
999.19,3.203,999.2,3.01,999.07,6.716,999.19,3.007,999.19,5.279,999.18,6.918,999.19,4.023,999.19,3.027,999.16,15.78,999.19,5.583
999.29,3.205,999.3,3.011,999.2,6.714,999.29,3.006,999.29,5.274,999.28,6.911,999.29,4.024,999.29,3.026,999.25,11.42,999.29,5.579
999.38,3.186,999.38,3.01,999.3,6.714,999.38,3.006,999.38,5.265,999.37,6.909,999.38,4.029,999.38,3.028,999.33,7.783,999.38,5.578
999.45,3.183,999.46,3.01,999.39,6.714,999.46,3.006,999.46,5.259,999.45,6.903,999.45,4.027,999.45,3.028,999.33,5.738,999.46,5.573
999.52,3.173,999.52,3.012,999.47,6.713,999.53,3.011,999.52,5.253,999.52,6.904,999.52,4.025,999.52,3.029,999.43,5.738,999.52,5.573
999.58,3.176,999.58,3.012,999.54,6.715,999.58,3.011,999.58,5.246,999.57,6.901,999.58,4.026,999.58,3.028,999.51,5.73,999.58,5.564
999.63,3.172,999.63,3.009,999.6,6.715,999.64,3.011,999.63,5.241,999.63,6.896,999.63,4.026,999.63,3.03,999.58,5.723,999.63,5.564
999.68,3.167,999.68,3.01,999.65,6.715,999.68,3.013,999.68,5.239,999.67,6.891,999.68,4.027,999.67,3.029,999.63,5.713,999.68,5.559
999.71,3.16,999.72,3.007,999.69,6.716,999.72,3.009,999.72,5.232,999.71,6.892,999.72,4.026,999.71,3.03,999.68,5.707,999.72,5.559
999.75,3.157,999.75,3.009,999.73,6.716,999.76,3.012,999.75,5.228,999.75,6.887,999.75,4.026,999.75,3.032,999.72,5.693,999.75,5.555
999.78,3.156,999.78,3.006,999.77,6.716,999.79,3.01,999.78,5.227,999.78,6.89,999.78,4.027,999.78,3.035,999.76,5.69,999.78,5.549
999.81,3.145,999.81,3.004,999.8,6.715,999.81,3.015,999.81,5.219,999.81,6.885,999.81,4.027,999.81,3.035,999.79,5.684,999.81,5.545
999.83,3.147,999.83,3.001,999.82,6.716,999.84,3.017,999.83,5.216,999.83,6.88,999.84,4.025,999.83,3.038,999.82,5.671,999.83,5.542
999.85,3.146,999.86,3.001,999.84,6.716,999.85,3.015,999.85,5.214,999.85,6.883,999.86,4.028,999.85,3.036,999.84,5.665,999.86,5.541
999.87,3.144,999.87,3,999.86,6.716,999.87,3.013,999.87,5.208,999.87,6.879,999.87,4.029,999.87,3.033,999.86,5.659,999.87,5.537
999.89,3.137,999.89,2.998,999.88,6.718,999.89,3.016,999.89,5.204,999.89,6.876,999.89,4.026,999.89,3.033,999.88,5.657,999.89,5.54
999.9,3.137,999.9,2.999,999.89,6.717,999.9,3.017,999.9,5.2,999.9,6.873,999.9,4.032,999.9,3.037,999.89,5.65,999.9,5.536
999.91,3.134,999.92,2.998,999.91,6.717,999.91,3.015,999.91,5.199,999.91,6.872,999.91,4.026,999.91,3.037,999.91,5.65,999.91,5.534
999.92,3.125,999.93,3.001,999.92,6.717,999.93,3.015,999.92,5.195,999.92,6.873,999.93,4.026,999.93,3.038,999.92,5.644,999.93,5.529
999.94,3.127,999.93,2.996,999.93,6.717,999.93,3.019,999.93,5.196,999.94,6.865,999.94,4.028,999.94,3.04,999.93,5.637,999.94,5.525
999.94,3.124,999.94,2.993,999.94,6.717,999.94,3.016,999.94,5.194,999.94,6.865,999.94,4.028,999.94,3.041,999.94,5.636,999.95,5.525
999.95,3.122,999.95,2.994,999.95,6.72,999.95,3.019,999.95,5.191,999.95,6.865,999.95,4.031,999.95,3.041,999.95,5.636,999.95,5.523
999.96,3.12,999.96,2.994,999.95,6.721,999.96,3.021,999.96,5.187,999.96,6.866,999.96,4.03,999.96,3.037,999.95,5.629,999.96,5.526
999.96,3.118,999.96,2.996,999.96,6.721,999.96,3.018,999.96,5.187,999.96,6.864,999.96,4.029,999.96,3.038,999.96,5.627,999.96,5.519
999.97,3.118,999.97,2.991,999.97,6.721,999.97,3.019,999.97,5.183,999.97,6.86,999.97,4.029,999.97,3.041,999.96,5.626,999.97,5.517
999.97,3.118,999.97,2.992,999.97,6.721,999.97,3.015,999.97,5.185,999.97,6.859,999.97,4.031,999.97,3.041,999.97,5.623,999.97,5.517
999.98,3.11,999.97,2.993,999.98,6.721,999.98,3.019,999.98,5.181,999.98,6.86,999.98,4.028,999.98,3.041,999.98,5.619,999.98,5.513
999.98,3.115,999.98,2.991,999.98,6.721,999.98,3.015,999.98,5.177,999.98,6.857,999.98,4.028,999.98,3.04,999.98,5.619,999.98,5.513
999.98,3.115,999.98,2.988,999.98,6.72,999.98,3.021,999.98,5.179,999.98,6.857,999.98,4.03,999.98,3.041,999.98,5.615,999.98,5.507
999.98,3.11,999.98,2.987,999.99,6.723,999.99,3.02,999.99,5.176,999.98,6.856,999.98,4.031,999.99,3.044,999.98,5.615,999.99,5.505
999.99,3.111,999.99,2.988,999.99,6.72,999.99,3.02,999.99,5.169,999.99,6.857,999.99,4.03,999.99,3.04,999.99,5.615,999.99,5.506
999.99,3.105,999.99,2.987,999.99,6.722,999.99,3.02,999.99,5.17,999.99,6.854,999.99,4.028,999.99,3.045,999.99,5.613,999.99,5.504
999.99,3.104,999.99,2.985,999.99,6.72,999.99,3.023,999.99,5.166,999.99,6.853,999.99,4.028,999.99,3.041,999.99,5.609,999.99,5.504
999.99,3.106,999.99,2.99,999.99,6.722,999.99,3.024,999.99,5.17,999.99,6.851,999.99,4.031,999.99,3.04,999.99,5.612,999.99,5.499
999.99,3.101,1000,2.986,999.99,6.723,1000,3.025,999.99,5.168,999.99,6.849,1000,4.031,999.99,3.04,999.99,5.608,999.99,5.498
1000,3.104,1000,2.987,1000,6.724,1000,3.026,999.99,5.166,1000,6.847,1000,4.027,999.99,3.044,999.99,5.606,1000,5.498
1000,3.104,1000,2.989,1000,6.725,1000,3.023,1000,5.167,1000,6.85,1000,4.03,1000,3.043,999.99,5.605,1000,5.495
1000,3.102,1000,2.988,1000,6.727,1000,3.025,1000,5.164,1000,6.85,1000,4.034,1000,3.044,1000,5.605,1000,5.492
1000,3.098,1000,2.989,1000,6.724,1000,3.021,1000,5.164,1000,6.852,1000,4.032,1000,3.045,1000,5.603,1000,5.491
1000,3.096,1000,2.99,1000,6.727,1000,3.029,1000,5.161,1000,6.844,1000,4.032,1000,3.046,1000,5.597,1000,5.493
1000,3.102,1000,2.989,1000,6.729,1000,3.023,1000,5.158,1000,6.848,1000,4.033,1000,3.046,1000,5.597,1000,5.488
1000,3.095,1000,2.99,1000,6.73,1000,3.026,1000,5.156,1000,6.844,1000,4.031,1000,3.046,1000,5.6,1000,5.486
,,1000,3.382,,,1000,3.037,,,,,,,1000,3.049,1000,5.597,,
,,1000,3.382,,,1000,2.862,,,,,,,,,1000,5.554,,
,,999.99,3.384,,,,,,,,,,,,,,,,
,,999.99,3.386,,,,,,,,,,,,,,,,
,,1000,3.387,,,,,,,,,,,,,,,,
,,1000,3.39,,,,,,,,,,,,,,,,
,,999.99,3.392,,,,,,,,,,,,,,,,
,,999.99,3.391,,,,,,,,,,,,,,,,
,,999.99,3.392,,,,,,,,,,,,,,,,
,,999.99,3.392,,,,,,,,,,,,,,,,
,,1000,3.392,,,,,,,,,,,,,,,,